File: XANES-jupyter-notebook/xafsderivative/Fe_K_111/Fe_K_111.txt
# XDI/1.0 Demeter/0.9.26
# Demeter.output_filetype: multicolumn mu(E)
# Element.symbol: Fe
# Element.edge: K
# Column.1: energy eV
# Column.2: Fe-foil.txt
# Column.3: Fe2_SO4_3_xH2O.txt
# Column.4: Fe3N.txt
# Column.5: Fe3P.txt
# Column.6: Fe3_PO4_2_8H2O.txt
# Column.7: FeB.txt
# Column.8: FeBr3.txt
# Column.9: FeCl2.txt
# Column.10: FeCl3.txt
# Column.11: FeCl3_6H2O.txt
# Column.12: FeF3_3H2O.txt
# Column.13: FeMoO4.txt
# Column.14: FeO_2.txt
# Column.15: FeS.txt
# Column.16: FeS2.txt
# Column.17: FeSO4.txt
# Column.18: FeSO4_7H2O.txt
# Column.19: FeSe.txt
# Column.20: FeSi2.txt
# Column.21: FeTiO3.txt
# Column.22: FeWO4.txt
# Column.23: Fe_NO3_3_9H2O.txt
# Column.24: Fe_OH_Ac2.txt
# Column.25: LaFeO3.txt
# Column.26: NH4_2Fe_SO4_2_xH2O.txt
# Column.27: NH4_Fe_SO4_2_xH2O.txt
# Column.28: a-Fe2O3.txt
# Column.29: a-FeOOH.txt
# Column.30: approx_FeBr2.txt
# Column.31: approx_Fe_OH_3.txt
# Column.32: approx_g-FeOOH.txt
#------------------------
#  "energy  Fe-foil.txt  Fe2_SO4_3_xH2O.txt  Fe3N.txt  Fe3P.txt  Fe3_PO4_2_8H2O.txt  FeB.txt  FeBr3.txt  FeCl2.txt  FeCl3.txt  FeCl3_6H2O.txt  FeF3_3H2O.txt  FeMoO4.txt  FeO_2.txt  FeS.txt  FeS2.txt  FeSO4.txt  FeSO4_7H2O.txt  FeSe.txt  FeSi2.txt  FeTiO3.txt
  6786.51       1.09939e-05   0.000130156   7.73552e-05   7.09186e-05   0.000101944   7.74002e-05   0.00028418   0.000155748   0.000216147   0.000216389   6.80315e-05   0.000273758   0.000106891   0.000112935   0.000132058   0.000123504   0.000147847   0.000104942   0.000123748   0.00018545   0.000460831   0.00010752   8.0059e-05   0.000436363   0.000123123   0.000175514   5.7131e-05   6.1391e-05   0.000212872   6.42817e-05   7.75787e-05
  6821.14       6.23606e-06   0.000122894   7.11857e-05   6.48963e-05   9.51814e-05   7.11489e-05   0.000273997   0.000147975   0.000207235   0.000207447   6.20103e-05   0.000264104   9.99201e-05   0.000105964   0.000124893   0.000116354   0.000140222   9.84835e-05   0.000116817   0.000177423   0.000448469   0.000100623   7.38303e-05   0.00042483   0.000115998   0.000167352   5.1403e-05   5.55084e-05   0.00020409   5.82888e-05   7.12637e-05
  6856.33       1.53231e-06   0.000115637   6.51114e-05   5.8906e-05   8.85075e-05   6.50191e-05   0.000263985   0.00014034   0.000198374   0.00019856   5.61744e-05   0.000254463   9.31642e-05   9.91971e-05   0.000117741   0.000109248   0.000132745   9.19227e-05   0.000109766   0.000169391   0.000436141   9.37518e-05   6.76601e-05   0.000413279   0.000109034   0.00015926   4.55781e-05   4.96693e-05   0.000195492   5.22792e-05   6.50062e-05
  6891.66      -3.05485e-06   0.000108592   5.9155e-05   5.30836e-05   8.19782e-05   5.91263e-05   0.000254191   0.00013281   0.000189691   0.000189868   5.03317e-05   0.000244975   8.66342e-05   9.25166e-05   0.000110774   0.000102302   0.00012538   8.55004e-05   0.000102957   0.000161582   0.000424237   8.7094e-05   6.15806e-05   0.000401867   0.000102171   0.000151331   3.98755e-05   4.39625e-05   0.000187039   4.64307e-05   5.89054e-05
  6927.37      -7.56839e-06   0.000101629   5.33034e-05   4.73895e-05   7.55358e-05   5.33291e-05   0.000244568   0.000125448   0.000181229   0.000181352   4.46245e-05   0.000235642   8.02194e-05   8.5964e-05   0.000103978   9.55106e-05   0.000118226   7.92534e-05   9.62196e-05   0.00015394   0.000412527   8.0515e-05   5.56702e-05   0.000390645   9.54617e-05   0.000143521   3.43614e-05   3.83893e-05   0.000178728   4.07149e-05   5.29513e-05
  6963.67      -1.20461e-05   9.4748e-05   4.73838e-05   4.17879e-05   6.92181e-05   4.76137e-05   0.00023506   0.000118118   0.000172806   0.000172919   3.90221e-05   0.00022654   7.38933e-05   7.94647e-05   9.71892e-05   8.87383e-05   0.000111061   7.31278e-05   8.95122e-05   0.000146275   0.000400995   7.40279e-05   4.98311e-05   0.000379487   8.87792e-05   0.000135845   2.88137e-05   3.28681e-05   0.000170482   3.5036e-05   4.7045e-05
  7000.06      -1.64061e-05   8.80869e-05   4.17161e-05   3.62337e-05   6.30534e-05   4.20304e-05   0.000225725   0.000111017   0.000164635   0.000164707   3.35492e-05   0.0002174   6.77009e-05   7.31785e-05   9.06583e-05   8.22e-05   0.000104196   6.70393e-05   8.29591e-05   0.000138997   0.000389692   6.77192e-05   4.41482e-05   0.000368557   8.23393e-05   0.00012836   2.34828e-05   2.75354e-05   0.000162463   2.95246e-05   4.12958e-05
  7037.19      -2.05561e-05   8.1473e-05   3.61626e-05   3.08749e-05   5.69899e-05   3.65304e-05   0.000216543   0.000103986   0.000156536   0.000156607   2.81564e-05   0.000208548   6.16616e-05   6.6962e-05   8.41924e-05   7.57268e-05   9.73964e-05   6.10409e-05   7.6658e-05   0.000131647   0.000378662   6.14948e-05   3.85274e-05   0.000357645   7.59111e-05   0.000120917   1.82226e-05   2.22106e-05   0.000154555   2.4093e-05   3.5629e-05
  7072.98      -2.40114e-05   7.54231e-05   3.1112e-05   2.59637e-05   5.14266e-05   3.16021e-05   0.00020807   9.75218e-05   0.000149084   0.000149115   2.32094e-05   0.000200359   5.60283e-05   6.12583e-05   7.82005e-05   6.98465e-05   9.12777e-05   5.55646e-05   7.08183e-05   0.000124841   0.00036799   5.58458e-05   3.33272e-05   0.000347513   6.99802e-05   0.000114116   1.3386e-05   1.73205e-05   0.000147236   1.90627e-05   3.04186e-05
  7076.72      -2.43238e-05   7.47837e-05   3.06535e-05   2.54282e-05   5.09044e-05   3.11131e-05   0.000207155   9.69183e-05   0.000148313   0.000148419   2.27231e-05   0.000199536   5.55274e-05   6.08018e-05   7.76468e-05   6.92555e-05   9.06435e-05   5.50867e-05   7.02111e-05   0.000124174   0.000366878   5.52402e-05   3.28243e-05   0.000346437   6.94642e-05   0.000113449   1.29339e-05   1.69266e-05   0.000146459   1.85807e-05   2.98933e-05
  7078.7      -2.44131e-05   7.45072e-05   3.03689e-05   2.52381e-05   5.06192e-05   3.08726e-05   0.000206795   9.66212e-05   0.000147955   0.000147974   2.24267e-05   0.000199007   5.52188e-05   6.04643e-05   7.72287e-05   6.90056e-05   9.04619e-05   5.49414e-05   6.99123e-05   0.000123839   0.000366415   5.49616e-05   3.26338e-05   0.000345924   6.9086e-05   0.000113082   1.26553e-05   1.67041e-05   0.000146122   1.82688e-05   2.97155e-05
  7080.92      -2.45979e-05   7.41277e-05   3.00973e-05   2.48956e-05   5.03198e-05   3.06365e-05   0.000206247   9.62063e-05   0.000147532   0.000147562   2.19921e-05   0.000198546   5.48423e-05   6.01776e-05   7.69734e-05   6.8576e-05   9.00226e-05   5.44472e-05   6.96129e-05   0.000123492   0.000365688   5.46515e-05   3.21964e-05   0.000345384   6.88043e-05   0.000112734   1.23811e-05   1.63496e-05   0.00014566   1.79547e-05   2.94406e-05
  7082.9      -2.45774e-05   7.38454e-05   2.9873e-05   2.46854e-05   5.00521e-05   3.03708e-05   0.00020573   9.59693e-05   0.000147175   0.000147183   2.18713e-05   0.000198162   5.463e-05   5.9861e-05   7.67171e-05   6.83398e-05   8.96992e-05   5.42145e-05   6.92907e-05   0.000123097   0.000365105   5.43692e-05   3.20256e-05   0.000344869   6.84761e-05   0.000112372   1.20322e-05   1.60877e-05   0.000145325   1.77117e-05   2.91463e-05
  7085.14      -2.47786e-05   7.34169e-05   2.95853e-05   2.42043e-05   4.97378e-05   3.0173e-05   0.000205374   9.54727e-05   0.000146708   0.000146739   2.16029e-05   0.000197726   5.43448e-05   5.9524e-05   7.63207e-05   6.80453e-05   8.9408e-05   5.38973e-05   6.90492e-05   0.000122669   0.000364603   5.4066e-05   3.17671e-05   0.000344085   6.81496e-05   0.000111953   1.18644e-05   1.59074e-05   0.000145015   1.74394e-05   2.88756e-05
  7087.49      -2.47959e-05   7.308e-05   2.92703e-05   2.40333e-05   4.93965e-05   2.99451e-05   0.000204834   9.5227e-05   0.000146314   0.000146329   2.12838e-05   0.000197142   5.39504e-05   5.92171e-05   7.59418e-05   6.76687e-05   8.89367e-05   5.36152e-05   6.86877e-05   0.000122334   0.000363801   5.37527e-05   3.15548e-05   0.000343481   6.78083e-05   0.000111548   1.15851e-05   1.55205e-05   0.000144467   1.71108e-05   2.85694e-05
  7089.5      -2.48429e-05   7.27781e-05   2.91021e-05   2.37516e-05   4.92336e-05   2.97398e-05   0.000204472   9.48977e-05   0.000145909   0.000145974   2.10836e-05   0.0001967   5.37741e-05   5.90133e-05   7.57089e-05   6.74875e-05   8.88065e-05   5.32985e-05   6.84414e-05   0.000121898   0.000363232   5.35195e-05   3.11635e-05   0.000343168   6.7523e-05   0.000111261   1.14341e-05   1.53922e-05   0.000144155   1.68739e-05   2.83301e-05
  7091.69      -2.47899e-05   7.24801e-05   2.88305e-05   2.35739e-05   4.89638e-05   2.95461e-05   0.000203894   9.45748e-05   0.000145527   0.000145596   2.07024e-05   0.000196341   5.34794e-05   5.8689e-05   7.5304e-05   6.72293e-05   8.84924e-05   5.29837e-05   6.81918e-05   0.000121599   0.000362624   5.31918e-05   3.09058e-05   0.000342544   6.7252e-05   0.000110885   1.09919e-05   1.5043e-05   0.000143741   1.65771e-05   2.808e-05
  7093.88      -2.4647e-05   7.21657e-05   2.86821e-05   2.34021e-05   4.86626e-05   2.93929e-05   0.000203508   9.43401e-05   0.000145259   0.000145271   2.06031e-05   0.000195944   5.32314e-05   5.8502e-05   7.51776e-05   6.69492e-05   8.81911e-05   5.27924e-05   6.79541e-05   0.000121333   0.000362197   5.29151e-05   3.06592e-05   0.000342089   6.70272e-05   0.000110559   1.07813e-05   1.48032e-05   0.000143526   1.63217e-05   2.78018e-05
  7095.91      -2.44837e-05   7.18872e-05   2.84921e-05   2.31125e-05   4.85047e-05   2.9325e-05   0.00020316   9.40681e-05   0.000144918   0.000144968   2.02887e-05   0.000195605   5.30212e-05   5.83261e-05   7.50477e-05   6.6739e-05   8.81544e-05   5.23749e-05   6.77688e-05   0.000120943   0.000361736   5.27404e-05   3.04807e-05   0.00034154   6.66042e-05   0.000110281   1.06019e-05   1.45172e-05   0.000143183   1.60454e-05   2.766e-05
  7098.11      -2.41557e-05   7.16083e-05   2.83746e-05   2.30209e-05   4.83276e-05   2.92842e-05   0.000202759   9.3742e-05   0.000144552   0.000144516   2.01313e-05   0.000195168   5.28917e-05   5.81581e-05   7.45876e-05   6.65499e-05   8.78775e-05   5.23421e-05   6.75889e-05   0.000120661   0.000361244   5.24697e-05   3.02475e-05   0.000340689   6.64907e-05   0.000109949   1.03723e-05   1.42445e-05   0.000142907   1.58151e-05   2.74336e-05
  7100.11      -2.35699e-05   7.13872e-05   2.83174e-05   2.29684e-05   4.82517e-05   2.9365e-05   0.000202506   9.36368e-05   0.000144397   0.000144359   1.98043e-05   0.000194894   5.27157e-05   5.80245e-05   7.45077e-05   6.64076e-05   8.7567e-05   5.21803e-05   6.74611e-05   0.000120489   0.000360723   5.23211e-05   3.00181e-05   0.000340314   6.62765e-05   0.000109645   1.01247e-05   1.39795e-05   0.000142651   1.55986e-05   2.72931e-05
  7102.33      -2.26096e-05   7.11438e-05   2.8385e-05   2.30938e-05   4.81703e-05   2.95832e-05   0.000202205   9.35042e-05   0.000144169   0.000144125   1.96459e-05   0.000194655   5.26904e-05   5.80128e-05   7.43758e-05   6.63461e-05   8.76988e-05   5.20194e-05   6.75508e-05   0.000120273   0.000360426   5.21763e-05   2.99635e-05   0.000339912   6.61082e-05   0.000109493   9.94415e-06   1.38919e-05   0.000142525   1.5324e-05   2.70708e-05
  7104.72      -2.03465e-05   7.09152e-05   2.87213e-05   2.3334e-05   4.82538e-05   3.03162e-05   0.000202123   9.35009e-05   0.00014406   0.000144048   1.94472e-05   0.000194471   5.27727e-05   5.82267e-05   7.45108e-05   6.64915e-05   8.7845e-05   5.20008e-05   6.78821e-05   0.000120165   0.000360355   5.20819e-05   2.97717e-05   0.000339241   6.58738e-05   0.000109333   9.79746e-06   1.37616e-05   0.000142484   1.51796e-05   2.70324e-05
  7106.71      -1.55526e-05   7.07761e-05   2.96432e-05   2.40914e-05   4.85888e-05   3.1762e-05   0.000202134   9.38043e-05   0.000144311   0.000144181   1.94814e-05   0.000194629   5.31335e-05   5.88255e-05   7.48855e-05   6.67741e-05   8.81396e-05   5.23342e-05   6.89584e-05   0.000120303   0.000360381   5.22239e-05   2.97282e-05   0.000338979   6.58757e-05   0.000109275   9.82368e-06   1.36459e-05   0.000142717   1.50832e-05   2.71207e-05
  7108.95       2.39564e-05   7.10163e-05   3.84116e-05   3.24744e-05   5.13612e-05   4.54735e-05   0.00020424   9.63503e-05   0.000145914   0.000145732   1.94916e-05   0.000196617   5.58221e-05   6.31316e-05   7.81597e-05   6.92885e-05   9.11044e-05   5.79503e-05   7.94277e-05   0.000122229   0.000362767   5.29048e-05   3.02841e-05   0.000338754   6.73199e-05   0.000109757   1.01869e-05   1.39851e-05   0.00014504   1.52055e-05   2.78906e-05
  7111.11       0.000100748   7.34736e-05   5.39823e-05   4.28464e-05   5.28356e-05   7.31708e-05   0.00021257   9.73684e-05   0.000159191   0.000157932   2.14396e-05   0.000198882   5.94366e-05   7.03999e-05   8.43848e-05   7.03345e-05   9.20708e-05   6.06321e-05   9.85124e-05   0.000123991   0.000364254   5.79455e-05   3.40196e-05   0.000340221   6.73502e-05   0.000113413   1.28503e-05   1.64566e-05   0.000147781   1.71337e-05   3.29517e-05
  7113.18       0.000133862   7.26262e-05   6.53979e-05   5.10883e-05   5.31232e-05   8.01288e-05   0.000206606   9.86077e-05   0.000149063   0.000148721   2.12059e-05   0.000208738   6.42386e-05   8.26549e-05   8.64818e-05   7.10329e-05   9.29176e-05   6.71454e-05   0.000121247   0.000131166   0.000375396   5.6745e-05   3.38179e-05   0.000340075   6.77365e-05   0.000112566   1.3562e-05   1.69926e-05   0.000149444   1.71484e-05   3.20197e-05
  7115.35       0.000152905   7.22306e-05   7.50015e-05   6.35479e-05   6.31209e-05   8.61634e-05   0.000214247   0.000111935   0.000151075   0.000150671   2.00147e-05   0.000215028   8.04774e-05   0.000121252   0.000116547   7.90306e-05   0.000100095   8.62721e-05   0.000138006   0.000138789   0.000379679   5.74215e-05   3.37767e-05   0.000342034   7.1204e-05   0.000112254   1.38749e-05   1.73834e-05   0.000166435   1.74596e-05   3.35633e-05
  7117.41       0.000219272   7.42267e-05   8.95896e-05   7.54134e-05   0.00010418   0.000117896   0.000266475   0.000179855   0.000168849   0.000166915   2.15449e-05   0.000232822   0.000114822   0.000161476   0.000157697   0.000119682   0.000147567   0.000105394   0.000146502   0.000152871   0.000407367   6.13463e-05   3.85531e-05   0.000345689   9.70251e-05   0.000116188   1.58126e-05   1.93796e-05   0.000230358   1.90509e-05   3.80168e-05
  7119.61       0.000294777   8.43714e-05   0.000104796   8.14014e-05   0.000180102   0.00015098   0.000320033   0.000268995   0.00024318   0.00023623   2.50587e-05   0.000265951   0.000143922   0.000176767   0.000163198   0.00024934   0.000245261   0.000109078   0.000152536   0.000207649   0.000454967   7.8293e-05   4.9903e-05   0.000352112   0.00013418   0.000134384   2.55657e-05   2.93328e-05   0.000289855   2.73366e-05   5.78205e-05
  7122.04       0.000347318   0.000118497   0.000125077   8.51262e-05   0.000255713   0.000184955   0.000349934   0.00029868   0.000276089   0.000271222   4.11265e-05   0.000344286   0.000192763   0.000183183   0.000171611   0.000320371   0.000361312   0.0001174   0.000161099   0.000255607   0.000544376   0.000133991   8.58226e-05   0.00036646   0.000212567   0.000185992   5.37482e-05   5.87485e-05   0.000304242   4.70054e-05   0.000102288
  7124.01       0.000374651   0.000150236   0.000137374   8.80623e-05   0.000299619   0.000208653   0.000372395   0.00026357   0.000303941   0.000302912   6.69524e-05   0.000394097   0.000212656   0.000188131   0.000174702   0.000330125   0.000433935   0.000121667   0.000165181   0.00026706   0.000568168   0.000197799   0.000127127   0.00040354   0.000249219   0.000231105   7.48798e-05   8.62252e-05   0.00030924   6.71314e-05   0.000146056
  7126.28       0.000415681   0.000201584   0.000152388   9.18457e-05   0.000270134   0.000237846   0.000364786   0.000249154   0.000337854   0.000340345   0.000112445   0.000392163   0.00023399   0.000191164   0.000184178   0.0002875   0.000385244   0.000125763   0.000171358   0.00027337   0.000558075   0.000279211   0.000178215   0.000463075   0.000224767   0.000300691   0.000106396   0.000137112   0.000305217   9.51115e-05   0.000221461
  7128.42       0.000455029   0.000244459   0.000160802   9.40746e-05   0.000251078   0.000246595   0.000357464   0.000234495   0.000343865   0.000348435   0.000170643   0.000367599   0.00021495   0.000193604   0.000192365   0.000266597   0.000341397   0.000126686   0.000179973   0.000263362   0.000539326   0.000318984   0.000198557   0.000454705   0.000191461   0.00034602   0.000116472   0.000161921   0.0003044   0.000107178   0.000258242
  7130.53       0.000437386   0.000254323   0.000158892   9.45903e-05   0.000232287   0.000240827   0.000350167   0.00023438   0.000343759   0.000348124   0.000184767   0.000371735   0.000185101   0.000193471   0.000199818   0.00028992   0.00031136   0.000126631   0.000191203   0.000256742   0.000524431   0.000319874   0.000205727   0.000438923   0.000168938   0.000354153   0.000124484   0.000157478   0.000306603   0.000105843   0.000258268
  7132.7       0.00040222   0.000248138   0.000151008   9.51082e-05   0.000218769   0.000224324   0.000352227   0.000235832   0.000345831   0.000349339   0.000164232   0.000354307   0.00017441   0.000192418   0.000203387   0.000266074   0.000295445   0.00012558   0.000200927   0.000236692   0.000515269   0.00030921   0.00020363   0.000436997   0.000165012   0.000352572   0.000121748   0.000150863   0.000303189   0.000102243   0.000240397
  7134.8       0.000391338   0.000243863   0.000145189   9.49118e-05   0.000216406   0.000214928   0.000345399   0.000233343   0.000344057   0.000346822   0.000161625   0.000326879   0.000166351   0.000191936   0.000204716   0.00024284   0.000284485   0.000123823   0.000210339   0.000223461   0.000498954   0.000300341   0.000198772   0.000440918   0.000163069   0.000346436   0.000110892   0.000141018   0.000298617   9.69374e-05   0.000229574
  7136.97       0.000400278   0.000234088   0.000142996   9.40959e-05   0.000213018   0.000218047   0.00033872   0.000232629   0.00033291   0.000334851   0.000167666   0.000319829   0.000165607   0.000190365   0.000203535   0.000237958   0.00027793   0.000122519   0.00021455   0.000215161   0.000485448   0.000283298   0.000190889   0.000436695   0.000162502   0.000331734   0.000104338   0.000133497   0.000293668   9.13473e-05   0.000217658
  7139.24       0.000410391   0.000218845   0.000141635   9.36133e-05   0.000208435   0.00022465   0.000334687   0.000230725   0.000324824   0.00032544   0.000150757   0.000318357   0.000173597   0.000188048   0.00020117   0.000221257   0.000269504   0.000121556   0.000215709   0.000208766   0.000481522   0.000258837   0.000176801   0.000435268   0.000156942   0.000312351   9.4785e-05   0.000123459   0.000287653   8.54831e-05   0.000203633
  7141.54       0.00040733   0.000206314   0.000141667   9.34755e-05   0.000200797   0.000225203   0.000331753   0.000228364   0.000319646   0.000319279   0.000135014   0.000319261   0.000175884   0.000185914   0.000197491   0.000214453   0.000258422   0.000120824   0.000213251   0.000210709   0.000479714   0.000240812   0.000166365   0.000431694   0.00014958   0.000296406   8.9343e-05   0.000117756   0.000284021   8.19569e-05   0.000194318
  7143.72       0.000409023   0.00019661   0.00014334   9.35447e-05   0.000190255   0.000222998   0.000328748   0.000223736   0.000316994   0.000315702   0.000124987   0.000316223   0.000168772   0.00018384   0.000192409   0.000204424   0.000247613   0.000119831   0.000207227   0.000211235   0.00047084   0.000228609   0.000158007   0.000424259   0.00014097   0.000283323   8.8499e-05   0.000114979   0.000282185   7.99409e-05   0.000189216
  7145.83       0.000423276   0.000190116   0.000145251   9.36206e-05   0.000181637   0.000219901   0.000326456   0.000219522   0.000314456   0.000312741   0.000121467   0.000309151   0.000162664   0.000181627   0.000188581   0.000198124   0.000238378   0.000119512   0.000201402   0.000208817   0.000464885   0.00022057   0.000152198   0.000415364   0.000135128   0.000274304   8.81557e-05   0.000111962   0.000281567   7.77917e-05   0.000184062
  7147.98       0.000435986   0.000184356   0.000146305   9.33556e-05   0.000174983   0.000215064   0.000324418   0.000215177   0.000311162   0.000309016   0.000118255   0.000301572   0.000158765   0.000178164   0.00018458   0.000196046   0.000229189   0.000119086   0.00019502   0.000208962   0.000460077   0.000212896   0.000144324   0.00040839   0.00013163   0.000265918   8.37884e-05   0.00010435   0.000279669   7.30707e-05   0.000172527
  7150.11       0.000441424   0.000178794   0.000145566   9.27896e-05   0.000172389   0.000211093   0.000323482   0.000211462   0.000307464   0.000305306   0.000114549   0.000297883   0.000156892   0.000174603   0.000181274   0.00019534   0.000226439   0.000118479   0.000189791   0.000208796   0.000459785   0.000206224   0.00013804   0.00040276   0.000132356   0.000258234   7.97284e-05   9.70783e-05   0.000277876   6.8709e-05   0.000161766
  7152.26       0.000442654   0.000171766   0.00014316   9.17976e-05   0.000174047   0.000208617   0.000323289   0.000209516   0.00030322   0.00030065   0.000108199   0.000295583   0.000155704   0.000171419   0.000178925   0.000195622   0.000231508   0.000118081   0.000184875   0.000207534   0.00046207   0.000200256   0.000131354   0.000397985   0.000136595   0.000248896   7.57864e-05   9.20638e-05   0.000276444   6.56843e-05   0.000153561
  7154.57       0.00043852   0.000164306   0.000140355   9.02821e-05   0.000178885   0.000208732   0.000324078   0.000210028   0.000298084   0.000295776   0.000101381   0.000297212   0.00015616   0.000169783   0.000177331   0.000199815   0.000241843   0.000118013   0.000180695   0.000206568   0.000466206   0.000195828   0.000126476   0.000393945   0.00014177   0.000239285   7.24424e-05   8.87465e-05   0.000274929   6.37208e-05   0.000148576
  7156.55       0.000436224   0.000158749   0.000137523   8.84529e-05   0.000184167   0.000209495   0.000325015   0.000212239   0.000293573   0.00029142   9.46429e-05   0.000301992   0.000157679   0.000169573   0.000175061   0.000208692   0.000254281   0.0001174   0.000177757   0.0002077   0.000472352   0.000193568   0.000123042   0.000391585   0.00014779   0.000232834   6.99271e-05   8.62948e-05   0.000273887   6.22252e-05   0.000146188
  7159.02       0.000435397   0.00015542   0.000134411   8.6718e-05   0.000190191   0.000208399   0.000325981   0.000215903   0.000289112   0.000287474   8.97483e-05   0.000306875   0.000159697   0.000170543   0.000172243   0.000222579   0.000266892   0.000116788   0.000176193   0.00021105   0.000477931   0.00019364   0.000122684   0.000389743   0.000153289   0.000229443   6.92338e-05   8.57134e-05   0.000273372   6.1732e-05   0.000144932
  7161.23       0.000431511   0.00015589   0.000131291   8.52613e-05   0.000195512   0.000204536   0.000327051   0.000219954   0.000286416   0.000284938   8.82502e-05   0.000309633   0.000161966   0.000172418   0.000171234   0.000233838   0.000276142   0.000116151   0.000175505   0.000213674   0.000482278   0.000196378   0.000125184   0.000390628   0.000157234   0.000231298   6.94398e-05   8.69952e-05   0.000273249   6.23636e-05   0.000145847
  7163.31       0.000427704   0.000158719   0.000128809   8.43759e-05   0.000199045   0.000200761   0.000327771   0.000223287   0.000285281   0.00028422   8.89992e-05   0.000312097   0.000166273   0.000174487   0.000172905   0.000239424   0.000279924   0.000115707   0.000175236   0.000216151   0.000485468   0.000200202   0.000128499   0.000393635   0.000158751   0.000235841   7.03606e-05   8.89807e-05   0.000273312   6.36984e-05   0.00014876
  7167.14       0.000422721   0.000168025   0.000126809   8.42969e-05   0.000204056   0.000198788   0.000328546   0.000227592   0.000286169   0.0002858   9.55574e-05   0.000317712   0.000176546   0.000179569   0.00017637   0.000242597   0.000280275   0.000114902   0.000177303   0.000221707   0.000489538   0.000209882   0.000135414   0.000400917   0.000159058   0.000248498   7.32322e-05   9.54843e-05   0.000274117   6.75215e-05   0.000158541
  7178.43       0.000384193   0.000186705   0.000134763   8.80341e-05   0.000202814   0.000219323   0.000325723   0.000226961   0.000297613   0.000297993   0.000113361   0.000319751   0.000173259   0.000183868   0.000182835   0.000225763   0.000281153   0.000114429   0.000189203   0.000221616   0.000481689   0.000229008   0.000148303   0.000408186   0.000156876   0.000271749   8.55058e-05   0.000108293   0.000278301   7.41081e-05   0.000183129
  7189.75       0.000417741   0.000184514   0.000141112   8.71331e-05   0.000195211   0.000215506   0.000319798   0.000215231   0.000302742   0.000302596   0.000116518   0.000311911   0.000158487   0.000174685   0.000184488   0.000218981   0.000263137   0.000113552   0.000197969   0.000212762   0.000477113   0.000225529   0.000148165   0.000404263   0.000149173   0.000269122   8.21384e-05   0.000104304   0.000274587   7.13698e-05   0.000174389
  7201.26       0.000387027   0.000179716   0.000134245   8.44525e-05   0.000185469   0.00020681   0.000315769   0.000205762   0.000300674   0.00029955   0.000114588   0.000303766   0.000159221   0.00016663   0.000183348   0.000214057   0.000250361   0.000112428   0.000185932   0.00020318   0.000464793   0.000215899   0.000142854   0.000399492   0.000140624   0.000261632   7.56266e-05   9.9609e-05   0.000269976   6.79989e-05   0.000167375
  7212.38       0.000425684   0.000170792   0.000125753   8.03211e-05   0.000183437   0.0002027   0.000314016   0.000209681   0.000289303   0.000287701   0.00010338   0.000299296   0.000158686   0.000166008   0.000168712   0.000211259   0.000251033   0.000109332   0.000170743   0.000203891   0.000460571   0.000205503   0.000133019   0.000392038   0.000139707   0.000250411   7.21102e-05   9.31467e-05   0.000264663   6.34109e-05   0.00016231
  7223.98       0.000438527   0.000163934   0.000124895   7.79566e-05   0.000183723   0.000193243   0.000311189   0.000210467   0.000278167   0.000277351   9.83134e-05   0.000296791   0.000158949   0.000167607   0.000163636   0.000206709   0.00025086   0.000105973   0.000170026   0.000204064   0.000459161   0.000202075   0.000129927   0.00038593   0.000140313   0.000243619   7.17458e-05   9.06603e-05   0.000261081   6.12303e-05   0.000157681
  7235.41       0.000357461   0.000162173   0.00012486   7.75605e-05   0.000181413   0.000195781   0.00030652   0.000207868   0.000275582   0.000275007   9.62414e-05   0.000294178   0.000149805   0.000167202   0.000167335   0.000208672   0.000251706   0.000103759   0.000174597   0.000203186   0.000459235   0.000201444   0.000129354   0.000382365   0.000140132   0.000240836   6.93861e-05   8.96624e-05   0.000260127   6.02052e-05   0.000150363
  7249.21       0.000375022   0.00016294   0.000127762   7.70524e-05   0.000181423   0.000197637   0.000302161   0.000203244   0.00027747   0.000276786   9.49774e-05   0.000292944   0.000153875   0.000163411   0.00016955   0.000210384   0.000252464   0.000102815   0.000177847   0.000198433   0.000456798   0.000201195   0.000127646   0.000381506   0.000138578   0.000241525   6.60632e-05   8.73238e-05   0.000258281   5.83211e-05   0.000153261
  7264.84       0.000379643   0.000163268   0.000118454   7.42818e-05   0.000177533   0.000199553   0.000298852   0.000197506   0.000278528   0.000277536   9.68573e-05   0.000292278   0.000151493   0.000157734   0.00016386   0.000201394   0.000245688   0.000101933   0.000171547   0.000195727   0.000449628   0.000200555   0.000127567   0.000380651   0.000133798   0.000242629   6.6043e-05   8.76349e-05   0.000252695   5.73232e-05   0.000156913
  7280.79       0.000408248   0.000159358   0.00011632   7.13164e-05   0.000171709   0.000187078   0.000296337   0.000193395   0.000273631   0.000272333   9.55069e-05   0.000283636   0.000146325   0.000154626   0.000161429   0.000196828   0.000237295   9.80549e-05   0.000162643   0.000192131   0.000442712   0.000195476   0.000125156   0.000373598   0.000128979   0.000238081   6.50278e-05   8.61416e-05   0.00024856   5.56446e-05   0.000150998
  7296.71       0.000374809   0.000153964   0.000115164   6.77462e-05   0.000167013   0.000180637   0.000291311   0.000191953   0.000264821   0.000263475   9.03926e-05   0.000278146   0.000138967   0.00015171   0.000154709   0.000192355   0.000232341   9.52286e-05   0.000159341   0.000188383   0.000436118   0.000188976   0.000119947   0.000368814   0.000125617   0.000230576   6.10733e-05   7.98625e-05   0.000244569   5.13226e-05   0.000141527
  7312.84       0.000350488   0.000149052   0.000115803   6.59947e-05   0.000163745   0.000180146   0.000283737   0.000187897   0.000257624   0.000256304   8.67034e-05   0.000273815   0.000140515   0.000148928   0.000149356   0.000189321   0.000229615   9.1773e-05   0.000158673   0.000181939   0.000432488   0.000184469   0.000114962   0.000362692   0.000122803   0.000224851   5.56526e-05   7.61377e-05   0.00023979   4.81866e-05   0.000140348
  7328.89       0.000345825   0.000145147   0.000109529   6.40766e-05   0.000161128   0.000181465   0.000278368   0.000182846   0.000254013   0.000252737   8.25868e-05   0.000270565   0.0001377   0.000146071   0.00014963   0.000185958   0.00022734   9.02424e-05   0.000157397   0.000182189   0.000427434   0.000181106   0.000112266   0.000358093   0.000120627   0.000220608   5.38151e-05   7.48783e-05   0.000235844   4.65513e-05   0.000137746
  7345.19       0.000351896   0.000142172   0.000104037   6.15887e-05   0.000157355   0.000176876   0.00027521   0.000178579   0.000251833   0.000250487   7.9503e-05   0.00026646   0.000133211   0.000142182   0.0001472   0.000181637   0.000223049   8.77487e-05   0.000152023   0.000178902   0.000422328   0.000177388   0.000110115   0.000353577   0.000117614   0.000217015   5.36067e-05   7.28538e-05   0.000231714   4.46199e-05   0.000132814
  7364.63       0.000378219   0.000139449   0.000102956   5.87344e-05   0.000152959   0.000169002   0.000272095   0.000174664   0.000248237   0.000246623   7.78431e-05   0.000261454   0.000128828   0.000137654   0.000143267   0.000177697   0.000217468   8.47581e-05   0.000147549   0.000172787   0.000415554   0.000173375   0.000106784   0.000350365   0.000113407   0.000213326   4.93942e-05   6.78584e-05   0.000226085   4.08655e-05   0.000129168
  7384.77       0.000323455   0.000135842   0.000100675   5.53962e-05   0.00014829   0.000164188   0.000266581   0.000170485   0.000242298   0.000240513   7.51019e-05   0.000256   0.000125699   0.000133781   0.000137704   0.000172285   0.000211805   8.12336e-05   0.000143451   0.000167752   0.00040937   0.000168659   0.000102975   0.000343216   0.000109066   0.000208892   4.5433e-05   6.56231e-05   0.000221615   3.84678e-05   0.000126516
  7405.33       0.000325874   0.000131239   9.73009e-05   5.25165e-05   0.000143846   0.000162852   0.000258926   0.000165936   0.000235171   0.000233442   7.12832e-05   0.000251244   0.000122662   0.000130347   0.000132363   0.000167365   0.000206171   7.82024e-05   0.000140134   0.000165768   0.000402179   0.000163753   9.94178e-05   0.000338432   0.000105218   0.000203487   4.37795e-05   6.27943e-05   0.000217212   3.58554e-05   0.000122523
  7425.69       0.000318613   0.000126454   9.28972e-05   4.998e-05   0.000139692   0.000159997   0.000252753   0.000161107   0.000229219   0.000227579   6.79735e-05   0.000244765   0.000117816   0.000126658   0.00012904   0.000163065   0.000201793   7.48123e-05   0.000135795   0.000160907   0.000396119   0.000159067   9.54629e-05   0.000332452   0.000101816   0.000197548   4.08628e-05   5.87144e-05   0.000211827   3.26497e-05   0.000116557
  7446.45       0.000329392   0.000122414   8.91412e-05   4.71752e-05   0.0001357   0.000152841   0.000248735   0.000156458   0.000224901   0.000223135   6.39515e-05   0.000239744   0.000114526   0.000122603   0.000126706   0.000158854   0.000197847   7.22828e-05   0.000132289   0.00015652   0.000390918   0.000154515   9.154e-05   0.000326618   9.84145e-05   0.00019264   3.65788e-05   5.51261e-05   0.000206234   2.94673e-05   0.000112331
  7467.3       0.000320852   0.000118821   8.69841e-05   4.44143e-05   0.000131777   0.000148265   0.000245088   0.000152456   0.000220968   0.000219044   6.07928e-05   0.000236359   0.000111734   0.000118535   0.000123217   0.000154423   0.000193111   6.94392e-05   0.000128413   0.000153109   0.00038518   0.000150083   8.82311e-05   0.000321731   9.48954e-05   0.000188375   3.41856e-05   5.249e-05   0.000201938   2.69983e-05   0.000109859
  7488.63       0.000300871   0.000115224   8.40227e-05   4.15349e-05   0.000127664   0.000146446   0.000239849   0.000148409   0.000216162   0.000214162   5.81907e-05   0.000231051   0.000107706   0.000114795   0.00011834   0.000149892   0.000188085   6.63804e-05   0.000124842   0.000149061   0.000377925   0.000145933   8.50764e-05   0.000316908   9.11013e-05   0.000183984   3.17623e-05   4.98589e-05   0.000197596   2.44615e-05   0.000106147
  7513.5       0.000297137   0.000111004   7.9654e-05   3.82029e-05   0.00012285   0.000142779   0.000232504   0.000143381   0.000209687   0.000207646   5.47197e-05   0.000224519   0.000103302   0.000110709   0.000114241   0.00014498   0.000182278   6.25709e-05   0.000119728   0.00014428   0.000371305   0.000141019   8.10253e-05   0.000310514   8.68547e-05   0.000178796   2.81788e-05   4.57473e-05   0.000191876   2.10891e-05   0.000100997
  7538.13       0.000293255   0.00010659   7.57764e-05   3.53038e-05   0.00011836   0.000137187   0.000226047   0.000138394   0.000203466   0.000201386   5.1198e-05   0.00021969   9.93245e-05   0.000106538   0.000109556   0.000140148   0.000177185   5.94247e-05   0.000116   0.000139997   0.000364361   0.000136085   7.69309e-05   0.000304655   8.28429e-05   0.000173562   2.49927e-05   4.23107e-05   0.000186376   1.79234e-05   9.68218e-05
  7563.12       0.00029222   0.000102075   7.30337e-05   3.21971e-05   0.000113918   0.00013192   0.000221056   0.000133649   0.000197984   0.000195893   4.77087e-05   0.000214072   9.54906e-05   0.000102297   0.000105531   0.000135287   0.000172234   5.63022e-05   0.000111807   0.000135695   0.000357578   0.000131312   7.30563e-05   0.000298303   7.90028e-05   0.000168272   2.18616e-05   3.9013e-05   0.000181085   1.49708e-05   9.293e-05
  7588.26       0.000278353   9.77209e-05   6.92412e-05   2.9131e-05   0.000109597   0.000128862   0.000216178   0.000129125   0.000192997   0.000190833   4.38748e-05   0.000208077   9.14374e-05   9.81481e-05   0.000102565   0.000130711   0.000167178   5.29841e-05   0.000108265   0.000131621   0.000351061   0.000126452   6.92799e-05   0.000292422   7.51836e-05   0.000163026   1.86685e-05   3.57285e-05   0.000176033   1.2012e-05   8.83155e-05
  7613.6       0.000271275   9.36663e-05   6.55469e-05   2.61244e-05   0.000105252   0.00012515   0.00021036   0.000124673   0.000187818   0.00018563   4.04469e-05   0.00020334   8.74851e-05   9.40715e-05   9.76905e-05   0.0001261   0.000162199   4.9492e-05   0.00010337   0.000127345   0.000344163   0.000121799   6.5536e-05   0.000286561   7.13127e-05   0.000158141   1.5486e-05   3.21261e-05   0.000170964   8.87798e-06   8.40651e-05
  7638.95       0.000265107   8.98458e-05   6.21088e-05   2.31092e-05   0.000101084   0.000121249   0.000204107   0.000120192   0.000182354   0.000180216   3.72287e-05   0.000198256   8.37514e-05   9.01746e-05   9.33724e-05   0.00012169   0.000157199   4.60963e-05   9.9082e-05   0.000122846   0.000337513   0.000117408   6.1874e-05   0.000280906   6.75422e-05   0.000153516   1.25972e-05   2.88743e-05   0.000165855   5.91799e-06   8.04189e-05
  7666.54       0.000259467   8.55673e-05   5.84785e-05   1.99553e-05   9.65965e-05   0.000116173   0.000197853   0.000115381   0.0001764   0.000174239   3.36845e-05   0.000192406   7.98821e-05   8.59808e-05   8.96771e-05   0.000116823   0.000151933   4.26423e-05   9.52031e-05   0.000118194   0.000330675   0.000112624   5.80229e-05   0.000274842   6.34658e-05   0.000148413   9.27783e-06   2.55285e-05   0.000160387   2.89993e-06   7.63116e-05
  7695.36       0.000254204   8.11218e-05   5.50716e-05   1.69744e-05   9.20461e-05   0.000111871   0.000192202   0.000110501   0.000170448   0.000168333   3.01237e-05   0.000186735   7.55666e-05   8.16846e-05   8.50582e-05   0.00011197   0.000146633   3.90392e-05   9.12126e-05   0.00011364   0.000323525   0.000107676   5.39684e-05   0.00026846   5.93301e-05   0.000143062   6.20138e-06   2.20133e-05   0.000155049  -3.02569e-07   7.17352e-05
  7724.62       0.000245317   7.67361e-05   5.17283e-05   1.38146e-05   8.74591e-05   0.000107943   0.000186602   0.000105828   0.000164908   0.000162791   2.65733e-05   0.000181181   7.14443e-05   7.7361e-05   8.11028e-05   0.000107136   0.000141491   3.562e-05   8.68025e-05   0.000109232   0.000316515   0.000102864   5.00381e-05   0.000262034   5.54602e-05   0.000137824   3.23231e-06   1.83996e-05   0.000149733  -3.51388e-06   6.73712e-05
  7754.29       0.000239051   7.2326e-05   4.77573e-05   1.05655e-05   8.29517e-05   0.000103461   0.000180597   0.000101087   0.000159414   0.000157316   2.28561e-05   0.000175408   6.75283e-05   7.31101e-05   7.71754e-05   0.000102345   0.000136279   3.19417e-05   8.23028e-05   0.000104601   0.000309454   9.8093e-05   4.60535e-05   0.000255855   5.14174e-05   0.000132588  -1.03246e-07   1.4927e-05   0.00014427  -6.65745e-06   6.32422e-05
  7784.21       0.00023127   6.80866e-05   4.4172e-05   7.34163e-06   7.85653e-05   9.88681e-05   0.000174383   9.63567e-05   0.000153827   0.000151694   1.93685e-05   0.000170047   6.34568e-05   6.90001e-05   7.2657e-05   9.77146e-05   0.00013116   2.83672e-05   7.78942e-05   0.000100079   0.000302286   9.33465e-05   4.22516e-05   0.000249667   4.74775e-05   0.000127498  -3.21899e-06   1.16264e-05   0.000138912  -9.7159e-06   5.9084e-05
  7814.36       0.000225908   6.39652e-05   4.05325e-05   4.13519e-06   7.41725e-05   9.43913e-05   0.000168519   9.17303e-05   0.000148098   0.000146049   1.60543e-05   0.000164605   5.97304e-05   6.49474e-05   6.86115e-05   9.30837e-05   0.000126074   2.5175e-05   7.40534e-05   9.57672e-05   0.000295435   8.86859e-05   3.83986e-05   0.000243565   4.35337e-05   0.000122474  -6.2596e-06   8.24226e-06   0.000133734  -1.28037e-05   5.49366e-05
  7844.52       0.000220013   5.99098e-05   3.71008e-05   1.18779e-06   6.98927e-05   9.0572e-05   0.000163018   8.71478e-05   0.000142535   0.000140594   1.26659e-05   0.00015913   5.60136e-05   6.09534e-05   6.48665e-05   8.85705e-05   0.000121044   2.21414e-05   7.01517e-05   9.13428e-05   0.000288635   8.41561e-05   3.46478e-05   0.000237494   3.9754e-05   0.000117606  -9.20896e-06   4.90923e-06   0.000128666  -1.5823e-05   5.09025e-05
  7877.6       0.000212404   5.54667e-05   3.32334e-05  -2.03393e-06   6.53083e-05   8.63341e-05   0.000157177   8.23624e-05   0.000136803   0.00013491   9.16485e-06   0.000153437   5.19965e-05   5.66647e-05   6.05148e-05   8.37186e-05   0.000115739   1.86907e-05   6.58336e-05   8.67669e-05   0.000281322   7.93361e-05   3.06794e-05   0.000231028   3.57238e-05   0.00011234  -1.24341e-05   1.49582e-06   0.000123148  -1.9023e-05   4.67122e-05
  7910.96       0.000205353   5.11171e-05   2.98017e-05  -5.14643e-06   6.07789e-05   8.21532e-05   0.000151234   7.75695e-05   0.000131163   0.000129351   5.60044e-06   0.000147775   4.81398e-05   5.24965e-05   5.63765e-05   7.89126e-05   0.000110656   1.5231e-05   6.15139e-05   8.23453e-05   0.000273872   7.461e-05   2.6768e-05   0.000224619   3.17609e-05   0.000107052  -1.55073e-05  -1.87571e-06   0.000117715  -2.2146e-05   4.2449e-05
  7944.84       0.000199143   4.68116e-05   2.63692e-05  -8.0169e-06   5.63328e-05   7.78775e-05   0.000145267   7.28713e-05   0.000125619   0.000123868   2.25894e-06   0.000141975   4.41617e-05   4.84576e-05   5.2168e-05   7.42703e-05   0.000105632   1.19374e-05   5.72875e-05   7.78093e-05   0.000266706   6.9935e-05   2.28932e-05   0.000218304   2.79081e-05   0.000101992  -1.86e-05  -5.31837e-06   0.000112408  -2.52756e-05   3.82686e-05
  7979.25       0.000193204   4.26071e-05   2.28076e-05  -1.09987e-05   5.1939e-05   7.37168e-05   0.000139493   6.82091e-05   0.000120009   0.000118288  -1.22477e-06   0.000136583   4.04536e-05   4.43876e-05   4.79729e-05   6.96498e-05   0.000100528   8.53985e-06   5.31525e-05   7.32495e-05   0.000259745   6.53342e-05   1.91134e-05   0.000212019   2.40226e-05   9.68947e-05  -2.16448e-05  -8.65403e-06   0.000107101  -2.84011e-05   3.4259e-05
  8013.71       0.000186729   3.84285e-05   1.9163e-05  -1.4003e-05   4.76615e-05   6.98231e-05   0.000134034   6.3687e-05   0.000114505   0.000112836  -4.46371e-06   0.00013115   3.6705e-05   4.04145e-05   4.39555e-05   6.51115e-05   9.55991e-05   5.35573e-06   4.90572e-05   6.89951e-05   0.000252559   6.08661e-05   1.54085e-05   0.000205924   2.02278e-05   9.19042e-05  -2.46368e-05  -1.18653e-05   0.000101938  -3.1446e-05   3.03141e-05
  8048.27       0.000180221   3.43734e-05   1.54938e-05  -1.66027e-05   4.34368e-05   6.59208e-05   0.000128618   5.92541e-05   0.000109197   0.000107548  -7.67243e-06   0.000125844   3.30239e-05   3.64101e-05   4.00413e-05   6.07102e-05   9.06788e-05   2.07081e-06   4.47908e-05   6.49854e-05   0.000245643   5.64654e-05   1.17836e-05   0.000199904   1.6539e-05   8.70384e-05  -2.75009e-05  -1.50357e-05   9.68482e-05  -3.43754e-05   2.63458e-05
  8084.02       0.00017354   3.01897e-05   1.18253e-05  -1.95113e-05   3.9208e-05   6.16579e-05   0.000123068   5.47097e-05   0.000103903   0.000102271  -1.09084e-05   0.000120546   2.91599e-05   3.24385e-05   3.59848e-05   5.61684e-05   8.5822e-05  -1.43044e-06   4.07579e-05   6.06095e-05   0.000238676   5.20364e-05   8.08911e-06   0.000193814   1.27805e-05   8.20455e-05  -3.04542e-05  -1.83041e-05   9.16769e-05  -3.73795e-05   2.2378e-05
  8121.77       0.00016761   2.59185e-05   8.23008e-06  -2.2341e-05   3.48701e-05   5.72719e-05   0.000117222   5.01851e-05   9.83447e-05   9.67569e-05  -1.43878e-05   0.000115171   2.53388e-05   2.83699e-05   3.18754e-05   5.15701e-05   8.07075e-05  -4.94294e-06   3.64822e-05   5.62235e-05   0.000231371   4.74189e-05   4.26012e-06   0.000187404   8.95661e-06   7.68958e-05  -3.34049e-05  -2.15902e-05   8.63919e-05  -4.04398e-05   1.83675e-05
  8159.81       0.000161379   2.16722e-05   4.3158e-06  -2.51995e-05   3.05992e-05   5.3039e-05   0.000111576   4.56413e-05   9.29315e-05   9.12883e-05  -1.7674e-05   0.000109641   2.1837e-05   2.4327e-05   2.77326e-05   4.69921e-05   7.57939e-05  -8.55689e-06   3.23201e-05   5.19353e-05   0.000224169   4.29027e-05   6.03303e-07   0.000181083   5.13651e-06   7.18151e-05  -3.6324e-05  -2.48519e-05   8.12663e-05  -4.3458e-05   1.42968e-05
  8198.51       0.000154938   1.75475e-05   9.3731e-07  -2.79624e-05   2.63299e-05   4.90887e-05   0.000106034   4.1115e-05   8.75107e-05   8.58857e-05  -2.10074e-05   0.000104229   1.8213e-05   2.03901e-05   2.37961e-05   4.24719e-05   7.07997e-05  -1.16774e-05   2.80941e-05   4.7532e-05   0.00021707   3.84414e-05  -3.06273e-06   0.000174823   1.4058e-06   6.68371e-05  -3.91161e-05  -2.80496e-05   7.6208e-05  -4.63872e-05   1.03133e-05
  8237.35       0.000148546   1.34779e-05  -2.65837e-06  -3.06343e-05   2.22027e-05   4.51104e-05   0.000100573   3.66687e-05   8.22103e-05   8.05933e-05  -2.4239e-05   9.89625e-05   1.45091e-05   1.65171e-05   1.97751e-05   3.80503e-05   6.58721e-05  -1.50158e-05   2.41399e-05   4.33663e-05   0.000210056   3.40798e-05  -6.60992e-06   0.000168648  -2.27437e-06   6.19433e-05  -4.192e-05  -3.12195e-05   7.12035e-05  -4.92522e-05   6.41749e-06
  8276.58       0.000142496   9.47963e-06  -6.18561e-06  -3.31675e-05   1.8079e-05   4.08452e-05   9.51267e-05   3.23421e-05   7.71195e-05   7.54464e-05  -2.74794e-05   9.3742e-05   1.08774e-05   1.2583e-05   1.58943e-05   3.36976e-05   6.09897e-05  -1.83869e-05   2.01844e-05   3.92998e-05   0.000203074   2.97617e-05  -1.00666e-05   0.000162581  -5.83209e-06   5.71067e-05  -4.47413e-05  -3.43049e-05   6.63562e-05  -5.20854e-05   2.56238e-06
  8316.41       0.000136533   5.50111e-06  -9.7476e-06  -3.59583e-05   1.40577e-05   3.67172e-05   8.97247e-05   2.7999e-05   7.20277e-05   7.03437e-05  -3.06611e-05   8.85766e-05   7.13939e-06   8.78735e-06   1.20792e-05   2.94225e-05   5.61821e-05  -2.1665e-05   1.63799e-05   3.52504e-05   0.000196521   2.5474e-05  -1.35156e-05   0.000156589  -9.41455e-06   5.23907e-05  -4.7516e-05  -3.73938e-05   6.15244e-05  -5.48414e-05  -1.23123e-06
  8357.4       0.00013054   1.64975e-06  -1.33495e-05  -3.87809e-05   1.00735e-05   3.27325e-05   8.4414e-05   2.37769e-05   6.69801e-05   6.52541e-05  -3.37089e-05   8.333e-05   3.57513e-06   4.97394e-06   8.25278e-06   2.51626e-05   5.15432e-05  -2.48762e-05   1.24747e-05   3.10737e-05   0.000189595   2.12754e-05  -1.69359e-05   0.000150619  -1.29161e-05   4.77067e-05  -5.0094e-05  -4.03954e-05   5.66787e-05  -5.75296e-05  -4.97917e-06
  8399.54       0.000124336  -2.36073e-06  -1.67869e-05  -4.17772e-05   6.00622e-06   2.83981e-05   7.90124e-05   1.94391e-05   6.183e-05   6.00812e-05  -3.67108e-05   7.80343e-05  -2.11455e-07   1.10507e-06   4.41681e-06   2.08567e-05   4.68418e-05  -2.80876e-05   8.52085e-06   2.70905e-05   0.00018297   1.69779e-05  -2.04107e-05   0.000144559  -1.64519e-05   4.29334e-05  -5.28973e-05  -4.3473e-05   5.17933e-05  -6.02251e-05  -8.7743e-06
  8442.12       0.000118345  -6.16313e-06  -2.03956e-05  -4.45182e-05   2.03747e-06   2.42677e-05   7.37107e-05   1.52464e-05   5.67759e-05   5.50269e-05  -3.98187e-05   7.28426e-05  -3.87839e-06  -2.64048e-06   6.26079e-07   1.66387e-05   4.22532e-05  -3.12184e-05   4.77957e-06   2.31271e-05   0.000176442   1.27605e-05  -2.38593e-05   0.000138628  -1.99894e-05   3.82728e-05  -5.56747e-05  -4.64517e-05   4.70426e-05  -6.29093e-05  -1.24775e-05
  8485.66       0.00011239  -1.00845e-05  -2.39461e-05  -4.76198e-05  -1.93449e-06   1.99981e-05   6.83305e-05   1.10168e-05   5.17812e-05   5.00045e-05  -4.3069e-05   6.78201e-05  -7.59285e-06  -6.29228e-06  -3.04908e-06   1.23703e-05   3.80133e-05  -3.42874e-05   1.10078e-06   1.89275e-05   0.000169969   8.58017e-06  -2.73248e-05   0.000132696  -2.35334e-05   3.3583e-05  -5.87043e-05  -4.94303e-05   4.23095e-05  -6.55301e-05  -1.61697e-05
  8529.14       0.00010658  -1.38498e-05  -2.73818e-05  -5.0718e-05  -5.79024e-06   1.58778e-05   6.3096e-05   6.90133e-06   4.68715e-05   4.51185e-05  -4.63157e-05   6.28915e-05  -1.12052e-05  -9.86565e-06  -6.71844e-06   8.27545e-06   3.37815e-05  -3.73522e-05  -2.80078e-06   1.5088e-05   0.000163419   4.48562e-06  -3.0786e-05   0.000126933  -2.70729e-05   2.90086e-05  -6.17305e-05  -5.24047e-05   3.76689e-05  -6.81178e-05  -1.97463e-05
  8573.08       0.000100806  -1.75147e-05  -3.08258e-05  -5.38487e-05  -9.55046e-06   1.19821e-05   5.79821e-05   2.87035e-06   4.21582e-05   4.03765e-05  -4.95964e-05   5.80229e-05  -1.46176e-05  -1.33527e-05  -1.04263e-05   4.24539e-06   2.95054e-05  -4.04492e-05  -6.37982e-06   1.12336e-05   0.000156864   4.94473e-07  -3.42834e-05   0.000121303  -3.06495e-05   2.46103e-05  -6.47885e-05  -5.54102e-05   3.3148e-05  -7.07089e-05  -2.324e-05
  8602.8       9.70475e-05  -1.99174e-05  -3.30338e-05  -5.59665e-05  -1.19819e-05   9.45596e-06   5.4617e-05   2.10004e-07   3.90057e-05   3.71882e-05  -5.18157e-05   5.47763e-05  -1.69476e-05  -1.57096e-05  -1.29344e-05   1.54658e-06   2.66128e-05  -4.25441e-05  -8.76319e-06   8.79484e-06   0.000152437  -2.16774e-06  -3.66492e-05   0.000117526  -3.30689e-05   2.16501e-05  -6.6857e-05  -5.74433e-05   3.01799e-05  -7.24207e-05  -2.55557e-05